# Time [s]    dTemp [°C]   Temp [°C]   Temp_0 [°C]       I [A]
      0.400000      0.005000     22.721000     22.716000      0.489000
      1.400000     -0.215000     22.537000     22.752000      0.483000
      2.400000     -0.406000     22.329000     22.735000      0.500000
      3.400000     -0.882000     21.873000     22.754000      0.501000
      4.400000     -1.197000     21.540000     22.737000      0.498000
      5.400000     -1.535000     21.216000     22.752000      0.496000
      6.400000     -1.806000     20.939000     22.745000      0.496000
      7.400000     -2.046000     20.682000     22.729000      0.497000
      8.400000     -2.363000     20.413000     22.776000      0.498000
      9.400000     -2.511000     20.274000     22.785000      0.500000
     10.400000     -2.684000     20.140000     22.824000      0.502000
     11.400000     -2.804000     20.010000     22.815000      0.498000
     12.400000     -2.790000     19.997000     22.787000      0.496000
     13.400000     -2.998000     19.808000     22.806000      0.492000
     14.400000     -3.077000     19.701000     22.778000      0.499000
     15.400000     -3.090000     19.656000     22.746000      0.497000
     16.400000     -3.292000     19.486000     22.778000      0.502000
     17.400000     -3.364000     19.425000     22.790000      0.494000
     18.400000     -3.412000     19.371000     22.784000      0.497000
     19.400000     -3.527000     19.257000     22.784000      0.497000
     20.500000     -3.653000     19.153000     22.807000      0.496000
     21.500000     -3.668000     19.125000     22.794000      0.492000
     22.500000     -3.754000     19.065000     22.819000      0.493000
     23.500000     -3.915000     18.931000     22.847000      0.489000
     24.500000     -3.912000     18.912000     22.824000      0.491000
     25.500000     -4.100000     18.736000     22.836000      0.492000
     26.500000     -4.139000     18.680000     22.819000      0.496000
     27.500000     -4.167000     18.641000     22.808000      0.498000
     28.500000     -4.195000     18.602000     22.797000      0.490000
     29.500000     -4.324000     18.480000     22.805000      0.498000
     30.500000     -4.456000     18.380000     22.836000      0.497000
     31.500000     -4.498000     18.348000     22.846000      0.495000
     32.500000     -4.537000     18.297000     22.835000      0.499000
     33.500000     -4.607000     18.211000     22.818000      0.491000
     34.500000     -4.585000     18.223000     22.808000      0.497000
     35.500000     -4.724000     18.111000     22.835000      0.497000
     36.500000     -4.732000     18.103000     22.836000      0.497000
     37.500000     -4.647000     18.132000     22.779000      0.497000
     38.500000     -4.741000     18.019000     22.760000      0.499000
     39.500000     -4.841000     17.922000     22.763000      0.495000
     40.500000     -4.929000     17.862000     22.791000      0.504000
     41.500000     -4.950000     17.843000     22.793000      0.498000
     42.500000     -5.041000     17.781000     22.822000      0.496000
     43.500000     -5.074000     17.717000     22.790000      0.494000
     44.500000     -5.217000     17.593000     22.810000      0.494000
     45.500000     -5.216000     17.575000     22.791000      0.492000
     46.500000     -5.234000     17.593000     22.827000      0.501000
     47.500000     -5.343000     17.483000     22.826000      0.497000
     48.500000     -5.299000     17.487000     22.785000      0.505000
     49.500000     -5.389000     17.405000     22.794000      0.494000
     50.500000     -5.438000     17.364000     22.802000      0.509000
     51.500000     -5.544000     17.265000     22.809000      0.499000
     52.500000     -5.536000     17.262000     22.798000      0.497000
     53.500000     -5.534000     17.242000     22.777000      0.496000
     54.500000     -5.560000     17.212000     22.772000      0.491000
     55.500000     -5.593000     17.177000     22.771000      0.495000
     56.500000     -5.704000     17.118000     22.822000      0.503000
     57.500000     -5.659000     17.131000     22.790000      0.504000
     58.500000     -5.740000     17.073000     22.814000      0.501000
     59.600000     -5.739000     17.052000     22.790000      0.503000
     60.600000     -5.833000     16.961000     22.794000      0.491000
     61.600000     -5.821000     16.966000     22.787000      0.495000
     62.600000     -5.932000     16.907000     22.839000      0.499000
     63.600000     -5.957000     16.859000     22.815000      0.498000
     64.600000     -5.999000     16.823000     22.822000      0.488000
     65.600000     -5.994000     16.826000     22.820000      0.504000
     66.600000     -6.065000     16.753000     22.819000      0.496000
     67.600000     -6.064000     16.738000     22.802000      0.489000
     68.600000     -6.110000     16.713000     22.824000      0.496000
     69.600000     -6.123000     16.700000     22.823000      0.497000
     70.600000     -6.117000     16.668000     22.786000      0.488000
     71.600000     -6.163000     16.614000     22.777000      0.498000
     72.600000     -6.147000     16.641000     22.788000      0.505000
     73.600000     -6.177000     16.608000     22.785000      0.494000
     74.600000     -6.280000     16.500000     22.780000      0.494000
     75.600000     -6.223000     16.551000     22.775000      0.498000
     76.600000     -6.299000     16.486000     22.785000      0.501000
     77.600000     -6.274000     16.517000     22.791000      0.497000
     78.600000     -6.273000     16.511000     22.784000      0.496000
     79.600000     -6.305000     16.472000     22.777000      0.500000
     80.600000     -6.351000     16.433000     22.784000      0.492000
     81.600000     -6.376000     16.385000     22.761000      0.492000
     82.600000     -6.481000     16.302000     22.782000      0.495000
     83.600000     -6.471000     16.302000     22.774000      0.488000
     84.600000     -6.442000     16.326000     22.768000      0.500000
     85.600000     -6.534000     16.235000     22.770000      0.495000
     86.600000     -6.607000     16.179000     22.786000      0.494000
     87.600000     -6.661000     16.150000     22.811000      0.496000
     88.600000     -6.688000     16.133000     22.821000      0.493000
     89.600000     -6.596000     16.163000     22.759000      0.491000
     90.600000     -6.573000     16.197000     22.770000      0.488000
     91.600000     -6.527000     16.222000     22.749000      0.496000
     92.600000     -6.624000     16.164000     22.788000      0.500000
     93.700000     -6.658000     16.141000     22.799000      0.500000
     94.700000     -6.710000     16.085000     22.794000      0.491000
     95.700000     -6.697000     16.072000     22.769000      0.493000
     96.700000     -6.643000     16.121000     22.764000      0.496000
     97.700000     -6.716000     16.044000     22.761000      0.498000
     98.700000     -6.772000     16.005000     22.777000      0.500000
     99.700000     -6.726000     16.040000     22.765000      0.501000
    100.700000     -6.809000     15.971000     22.780000      0.496000
    101.700000     -6.813000     15.968000     22.781000      0.501000
    102.700000     -6.814000     15.951000     22.765000      0.490000
    103.700000     -6.744000     16.010000     22.754000      0.491000
    104.700000     -6.856000     15.921000     22.776000      0.496000
    105.700000     -6.846000     15.898000     22.744000      0.496000
    106.700000     -6.868000     15.869000     22.736000      0.493000
    107.700000     -6.936000     15.838000     22.774000      0.495000
    108.700000     -6.893000     15.873000     22.766000      0.498000
    109.700000     -7.000000     15.819000     22.819000      0.492000
    110.700000     -6.969000     15.833000     22.801000      0.499000
    111.700000     -7.033000     15.769000     22.802000      0.498000
    112.700000     -7.032000     15.788000     22.820000      0.496000
    113.700000     -7.005000     15.790000     22.794000      0.500000
    114.700000     -7.042000     15.752000     22.793000      0.497000
    115.700000     -7.036000     15.746000     22.782000      0.491000
    116.700000     -7.027000     15.743000     22.770000      0.498000
    117.700000     -7.071000     15.710000     22.781000      0.495000
    118.700000     -7.035000     15.710000     22.745000      0.491000
    119.700000     -7.083000     15.690000     22.773000      0.506000
    120.700000     -7.100000     15.668000     22.768000      0.502000
    121.700000     -7.138000     15.658000     22.796000      0.503000
    122.700000     -7.195000     15.630000     22.825000      0.497000
    123.700000     -7.073000     15.697000     22.770000      0.497000
    124.700000     -7.185000     15.624000     22.809000      0.504000
    125.700000     -7.062000     15.725000     22.787000      0.494000
    126.700000     -7.176000     15.621000     22.797000      0.498000
    127.700000     -7.181000     15.595000     22.775000      0.493000
    128.700000     -7.062000     15.681000     22.743000      0.486000
    129.700000     -7.197000     15.577000     22.774000      0.494000
    130.700000     -7.190000     15.564000     22.754000      0.500000
    131.700000     -7.106000     15.599000     22.705000      0.492000
    132.700000     -7.166000     15.593000     22.759000      0.495000
    133.700000     -7.165000     15.580000     22.745000      0.508000
    134.800000     -7.240000     15.538000     22.778000      0.493000
    135.700000     -7.197000     15.567000     22.763000      0.494000
    136.800000     -7.255000     15.536000     22.791000      0.500000
    137.700000     -7.213000     15.550000     22.763000      0.490000
    138.800000     -7.204000     15.572000     22.776000      0.495000
    139.800000     -7.235000     15.553000     22.787000      0.494000
    140.800000     -7.247000     15.522000     22.768000      0.499000
    141.800000     -7.208000     15.530000     22.738000      0.497000
    142.800000     -7.268000     15.488000     22.756000      0.495000
    143.800000     -7.232000     15.489000     22.721000      0.498000
    144.800000     -7.297000     15.431000     22.728000      0.494000
    145.800000     -7.408000     15.396000     22.804000      0.492000
    146.800000     -7.455000     15.378000     22.833000      0.494000
    147.800000     -7.337000     15.482000     22.818000      0.495000
    148.800000     -7.314000     15.466000     22.780000      0.497000
    149.800000     -7.335000     15.411000     22.746000      0.491000
    150.800000     -7.310000     15.425000     22.735000      0.501000
    151.800000     -7.305000     15.460000     22.765000      0.493000
    152.800000     -7.388000     15.419000     22.807000      0.496000
    153.800000     -7.309000     15.454000     22.763000      0.496000
    154.800000     -7.351000     15.409000     22.760000      0.496000
    155.800000     -7.426000     15.364000     22.790000      0.495000
    156.800000     -7.413000     15.368000     22.781000      0.501000
    157.800000     -7.438000     15.347000     22.785000      0.500000
    158.800000     -7.448000     15.320000     22.767000      0.494000
    159.800000     -7.455000     15.326000     22.781000      0.504000
    160.800000     -7.477000     15.287000     22.764000      0.494000
    161.800000     -7.467000     15.327000     22.794000      0.493000
    162.800000     -7.415000     15.357000     22.772000      0.493000
    163.800000     -7.487000     15.295000     22.782000      0.492000
    164.800000     -7.495000     15.290000     22.785000      0.504000
    165.800000     -7.408000     15.371000     22.779000      0.491000
    166.800000     -7.390000     15.360000     22.750000      0.488000
    167.800000     -7.420000     15.340000     22.760000      0.498000
    168.800000     -7.416000     15.338000     22.753000      0.498000
    169.800000     -7.517000     15.254000     22.771000      0.502000
    170.800000     -7.526000     15.267000     22.793000      0.490000
    171.800000     -7.541000     15.252000     22.793000      0.495000
    172.800000     -7.538000     15.244000     22.783000      0.491000
    173.800000     -7.559000     15.256000     22.815000      0.495000
    174.800000     -7.479000     15.309000     22.789000      0.498000
    175.800000     -7.442000     15.334000     22.775000      0.505000
    176.800000     -7.402000     15.354000     22.756000      0.502000
    177.800000     -7.413000     15.335000     22.748000      0.502000
    178.900000     -7.453000     15.310000     22.763000      0.506000
    179.900000     -7.487000     15.277000     22.764000      0.497000
    180.900000     -7.483000     15.281000     22.764000      0.500000
    181.900000     -7.417000     15.325000     22.741000      0.485000
    182.900000     -7.415000     15.327000     22.742000      0.500000
    183.900000     -7.529000     15.227000     22.756000      0.496000
    184.900000     -7.611000     15.166000     22.777000      0.484000
    185.900000     -7.537000     15.206000     22.743000      0.495000
    186.900000     -7.454000     15.264000     22.718000      0.497000
    187.900000     -7.426000     15.285000     22.712000      0.495000
    188.900000     -7.568000     15.197000     22.764000      0.504000
    189.900000     -7.593000     15.186000     22.779000      0.487000
    190.900000     -7.557000     15.199000     22.756000      0.498000
    191.900000     -7.590000     15.167000     22.757000      0.495000
    192.900000     -7.582000     15.189000     22.771000      0.494000
    193.900000     -7.629000     15.143000     22.772000      0.498000
    194.900000     -7.500000     15.241000     22.740000      0.492000
    195.900000     -7.466000     15.307000     22.773000      0.490000
    196.900000     -7.552000     15.194000     22.746000      0.494000
    197.900000     -7.589000     15.173000     22.762000      0.487000
    198.900000     -7.604000     15.163000     22.767000      0.492000
    199.900000     -7.640000     15.147000     22.787000      0.488000
    200.900000     -7.613000     15.154000     22.767000      0.492000
    201.900000     -7.686000     15.111000     22.797000      0.497000
    202.900000     -7.603000     15.164000     22.767000      0.501000
    203.900000     -7.694000     15.070000     22.763000      0.506000
    204.900000     -7.649000     15.122000     22.771000      0.498000
    205.900000     -7.591000     15.145000     22.736000      0.494000
    206.900000     -7.591000     15.161000     22.752000      0.494000
    207.900000     -7.547000     15.202000     22.749000      0.494000
    208.900000     -7.487000     15.261000     22.748000      0.497000
    209.900000     -7.617000     15.173000     22.789000      0.493000
    210.900000     -7.521000     15.221000     22.742000      0.496000
    211.900000     -7.590000     15.153000     22.743000      0.494000
    212.900000     -7.600000     15.150000     22.750000      0.496000
    213.900000     -7.601000     15.151000     22.751000      0.497000
    214.900000     -7.558000     15.178000     22.735000      0.493000
    215.900000     -7.634000     15.130000     22.764000      0.498000
    216.900000     -7.593000     15.157000     22.750000      0.499000
    217.900000     -7.626000     15.127000     22.753000      0.495000
    218.900000     -7.706000     15.066000     22.772000      0.498000
    219.900000     -7.685000     15.084000     22.769000      0.497000
    220.900000     -7.734000     15.048000     22.782000      0.496000
    221.900000     -7.702000     15.078000     22.780000      0.501000
    222.900000     -7.688000     15.100000     22.788000      0.498000
    223.900000     -7.695000     15.084000     22.779000      0.487000
    225.000000     -7.584000     15.172000     22.757000      0.495000
    225.900000     -7.643000     15.130000     22.773000      0.493000
    227.000000     -7.631000     15.115000     22.746000      0.492000
    228.000000     -7.610000     15.109000     22.719000      0.484000
    229.000000     -7.616000     15.119000     22.735000      0.498000
    230.000000     -7.655000     15.103000     22.758000      0.496000
    231.000000     -7.681000     15.089000     22.771000      0.493000
    232.000000     -7.660000     15.103000     22.763000      0.501000
    233.000000     -7.689000     15.071000     22.760000      0.493000
    234.000000     -7.632000     15.125000     22.757000      0.487000
    235.000000     -7.610000     15.137000     22.747000      0.493000
    236.000000     -7.698000     15.074000     22.772000      0.493000
    237.000000     -7.668000     15.085000     22.753000      0.491000
    238.000000     -7.665000     15.104000     22.769000      0.492000
    239.000000     -7.658000     15.092000     22.751000      0.493000
    240.000000     -7.692000     15.081000     22.773000      0.502000
    241.000000     -7.701000     15.064000     22.765000      0.501000
    242.000000     -7.759000     15.027000     22.786000      0.495000
    243.000000     -7.675000     15.090000     22.765000      0.490000
    244.000000     -7.725000     15.053000     22.778000      0.484000
    245.000000     -7.647000     15.091000     22.739000      0.491000
    246.000000     -7.568000     15.157000     22.725000      0.499000
    247.000000     -7.559000     15.150000     22.709000      0.500000
    248.000000     -7.709000     15.066000     22.775000      0.496000
    249.000000     -7.772000     15.012000     22.784000      0.499000
    250.000000     -7.718000     15.044000     22.762000      0.489000
    251.000000     -7.674000     15.090000     22.764000      0.499000
    252.000000     -7.703000     15.054000     22.757000      0.496000
    253.000000     -7.673000     15.066000     22.739000      0.494000
    254.000000     -7.670000     15.058000     22.728000      0.500000
    255.000000     -7.775000     15.006000     22.781000      0.495000
    256.000000     -7.668000     15.081000     22.749000      0.492000
    257.000000     -7.615000     15.110000     22.725000      0.500000
    258.000000     -7.659000     15.066000     22.725000      0.495000
    259.000000     -7.759000     14.995000     22.753000      0.502000
    260.000000     -7.687000     15.052000     22.739000      0.495000
    261.000000     -7.699000     15.053000     22.752000      0.493000
    262.000000     -7.714000     15.045000     22.759000      0.496000
    263.000000     -7.686000     15.056000     22.742000      0.493000
    264.000000     -7.727000     15.026000     22.753000      0.493000
    265.000000     -7.687000     15.038000     22.725000      0.499000
    266.000000     -7.709000     15.037000     22.746000      0.495000
    267.100000     -7.622000     15.120000     22.742000      0.496000
    268.000000     -7.613000     15.099000     22.712000      0.499000
    269.000000     -7.717000     15.055000     22.772000      0.492000
    270.100000     -7.650000     15.081000     22.731000      0.496000
    271.100000     -7.673000     15.053000     22.726000      0.502000
    272.100000     -7.695000     15.037000     22.731000      0.494000
    273.100000     -7.729000     15.019000     22.747000      0.494000
    274.100000     -7.761000     15.006000     22.767000      0.492000
    275.100000     -7.732000     15.012000     22.744000      0.496000
    276.100000     -7.732000     15.026000     22.758000      0.499000
    277.100000     -7.729000     15.067000     22.795000      0.490000
    278.100000     -7.782000     15.025000     22.807000      0.496000
    279.100000     -7.801000     14.990000     22.791000      0.494000
    280.100000     -7.801000     14.994000     22.795000      0.488000
    281.100000     -7.776000     15.006000     22.783000      0.492000
    282.100000     -7.692000     15.028000     22.720000      0.490000
    283.100000     -7.740000     15.014000     22.754000      0.494000
    284.100000     -7.710000     15.043000     22.752000      0.498000
    285.100000     -7.680000     15.056000     22.736000      0.505000
    286.100000     -7.810000     14.979000     22.788000      0.496000
    287.100000     -7.749000     14.993000     22.743000      0.487000
    288.100000     -7.805000     14.966000     22.771000      0.491000
    289.100000     -7.825000     14.962000     22.788000      0.495000
    290.100000     -7.774000     14.980000     22.754000      0.494000
    291.100000     -7.771000     14.966000     22.737000      0.493000
    292.100000     -7.673000     15.055000     22.729000      0.495000
    293.100000     -7.671000     15.039000     22.709000      0.512000
    294.100000     -7.636000     15.067000     22.703000      0.500000
    295.100000     -7.768000     14.978000     22.746000      0.489000
    296.100000     -7.688000     15.028000     22.716000      0.501000
    297.100000     -7.620000     15.068000     22.688000      0.491000
    298.100000     -7.656000     15.062000     22.718000      0.496000
    299.100000     -7.729000     15.005000     22.734000      0.496000
    300.100000     -7.758000     14.994000     22.752000      0.497000
    301.100000     -7.663000     15.069000     22.731000      0.492000
    302.100000     -7.758000     14.997000     22.755000      0.498000
